Data from palm_cartel_d_45_25_Reflection_00004.txt Node
Date: Fri Feb 11 15:42:38 ART 2022
User: Nati
Spectrometer: USB2E3644
Trigger mode: 4
Integration Time (sec): 3,520000E-1
Scans to average: 10
Electric dark correction enabled: true
Nonlinearity correction enabled: false
Boxcar width: 10
XAxis mode: Wavelengths
Number of Pixels in Spectrum: 2048
>>>>>Begin Spectral Data<<<<<
178,315	63,28
178,696	66,35
179,076	67,85
179,457	80,71
179,838	105,11
180,218	270,97
180,599	480
180,979	38,89
181,36	76,8
181,74	178,65
182,121	-784,62
182,501	-167,44
182,881	50,6
183,262	22,7
183,642	67,87
184,022	77,04
184,402	73,61
184,783	82,07
185,163	90,07
185,543	90,98
185,923	69,79
186,303	51,32
186,683	58,35
187,063	77,94
187,443	87,17
187,823	130,32
188,203	405,63
188,583	451,95
188,963	960
189,343	-1642,11
189,723	1941,18
190,102	397,59
190,482	344,55
190,862	-483,58
191,242	-284,89
191,621	-267,43
192,001	-290,8
192,38	-241,71
192,76	-203,61
193,14	-173,04
193,519	-90,18
193,898	-98,77
194,278	-113,92
194,657	-123,11
195,037	-80,45
195,416	-76,11
195,795	-66,23
196,175	-51,4
196,554	-33,59
196,933	-46,73
197,312	-50,92
197,692	-33
198,071	-34,14
198,45	-42,04
198,829	-57,57
199,208	-56,67
199,587	-26,85
199,966	-12,48
200,345	3,96
200,724	25,34
201,103	30,6
201,482	25,47
201,86	28,82
202,239	43,2
202,618	51,49
202,997	35,49
203,375	22,78
203,754	20,61
204,133	31,99
204,511	38,6
204,89	49,58
205,269	58,06
205,647	65,79
206,026	66,1
206,404	65,77
206,782	58,54
207,161	60,64
207,539	45,68
207,918	23,3
208,296	3,06
208,674	-28,69
209,052	-47,69
209,431	-52,44
209,809	-52,54
210,187	-49,39
210,565	-48,9
210,943	-44,23
211,321	-59,02
211,699	-110,97
212,077	-425,17
212,455	-978,08
212,833	-2651,61
213,211	-618,05
213,589	-400,98
213,967	-371,3
214,345	-486,86
214,722	-529,66
215,1	-552,52
215,478	-903,8
215,855	-379,88
216,233	-217,36
216,611	-280,98
216,988	-250,27
217,366	-333,83
217,743	-665,75
218,121	-1670,27
218,498	-685,71
218,876	-236,29
219,253	-181,6
219,631	-121,64
220,008	-81,31
220,385	-94,15
220,762	-101,3
221,14	-134,77
221,517	-166,09
221,894	-194,33
222,271	-265,33
222,648	-279,79
223,025	-164,01
223,402	-95,35
223,78	-103,15
224,157	-87,66
224,533	-63,62
224,91	-59,13
225,287	-63,79
225,664	-49,93
226,041	-62,3
226,418	-54,84
226,795	-59,52
227,171	-58,24
227,548	-58,69
227,925	-52,82
228,301	-58,19
228,678	-64,95
229,055	-64,91
229,431	-75,56
229,808	-94,25
230,184	-94,19
230,561	-85,84
230,937	-83,36
231,313	-99,86
231,69	-84,57
232,066	-80,89
232,442	-73,89
232,819	-69,58
233,195	-43,25
233,571	-38,98
233,947	-31,48
234,323	-29,08
234,699	-27,13
235,075	-24,81
235,451	-30,93
235,827	-38,2
236,203	-29,23
236,579	-19,7
236,955	-17,55
237,331	-13,38
237,707	-7,72
238,083	-9,66
238,459	-3,78
238,834	0,62
239,21	4,68
239,586	5,68
239,961	7,38
240,337	7,82
240,713	10,12
241,088	7,4
241,464	9,69
241,839	10,61
242,215	12,63
242,59	10,77
242,965	11,11
243,341	13,74
243,716	17,09
244,091	17,97
244,467	18,6
244,842	20,09
245,217	21,16
245,592	22,6
245,967	25,25
246,343	25,48
246,718	24,5
247,093	23,99
247,468	23,57
247,843	22,97
248,218	23,03
248,593	21,52
248,967	20,65
249,342	18,5
249,717	19,07
250,092	18,51
250,467	19,51
250,841	19,76
251,216	19,46
251,591	18,92
251,965	18,88
252,34	18,83
252,714	18,59
253,089	17,53
253,463	16,3
253,838	12,45
254,212	10,31
254,587	12,5
254,961	14,43
255,335	16,09
255,71	17,32
256,084	17,33
256,458	17,97
256,832	18,57
257,206	19,67
257,581	19,89
257,955	19,79
258,329	19,15
258,703	19,35
259,077	20,17
259,451	20,79
259,825	21,23
260,199	20,96
260,572	20,69
260,946	20,96
261,32	20,78
261,694	21,44
262,068	21,95
262,441	21,84
262,815	21,77
263,189	21,55
263,562	21,27
263,936	21,98
264,309	22,54
264,683	22,62
265,056	22,36
265,43	22,29
265,803	22,52
266,176	22,3
266,55	21,99
266,923	21,74
267,296	20,52
267,67	19,39
268,043	19,94
268,416	20,3
268,789	20,12
269,162	19,88
269,535	19,67
269,908	20,06
270,281	20,13
270,654	19,43
271,027	18,91
271,4	18,92
271,773	18,62
272,146	18,18
272,519	18,27
272,891	18,09
273,264	17,41
273,637	16,85
274,01	16,95
274,382	17,33
274,755	17,52
275,127	18,69
275,5	19,9
275,872	19,87
276,245	20,01
276,617	20,15
276,99	21,13
277,362	21,6
277,734	20,77
278,107	20,19
278,479	20,15
278,851	20,67
279,223	20,55
279,596	20,46
279,968	20,9
280,34	21,23
280,712	21,95
281,084	22,71
281,456	22,77
281,828	22,37
282,2	22,24
282,572	21,87
282,944	21,32
283,315	20,86
283,687	20,87
284,059	20,38
284,431	20,06
284,802	19,61
285,174	19,29
285,546	19,46
285,917	20,03
286,289	20,83
286,66	20,98
287,032	21,06
287,403	21,28
287,775	20,98
288,146	21,03
288,518	21,05
288,889	20,73
289,26	20,93
289,632	21,11
290,003	20,77
290,374	20,72
290,745	20,77
291,116	20,65
291,487	20,64
291,858	20,94
292,229	21,19
292,6	20,87
292,971	20,82
293,342	20,56
293,713	19,98
294,084	19,47
294,455	19,28
294,826	19,41
295,196	19,48
295,567	19,69
295,938	19,42
296,308	19,13
296,679	18,96
297,05	18,51
297,42	18,55
297,791	18,89
298,161	18,78
298,532	18,74
298,902	18,82
299,272	18,72
299,643	18,18
300,013	17,93
300,383	18,06
300,754	17,89
301,124	18,31
301,494	18,36
301,864	18,39
302,234	18,19
302,604	17,68
302,974	17,47
303,344	17,45
303,714	17,44
304,084	17,41
304,454	17,56
304,824	17,98
305,194	17,99
305,563	17,7
305,933	17,83
306,303	17,64
306,673	17,71
307,042	17,69
307,412	17,89
307,781	17,93
308,151	17,81
308,521	17,8
308,89	17,61
309,259	17,77
309,629	17,53
309,998	17,41
310,368	17,55
310,737	17,42
311,106	17,12
311,475	16,92
311,845	16,85
312,214	16,69
312,583	16,33
312,952	16,2
313,321	16
313,69	15,88
314,059	15,95
314,428	15,78
314,797	15,63
315,166	15,77
315,535	15,64
315,904	15,71
316,272	15,61
316,641	15,37
317,01	14,83
317,379	14,89
317,747	14,94
318,116	14,95
318,484	15,28
318,853	15,42
319,221	15,46
319,59	15,5
319,958	15,58
320,327	15,63
320,695	15,69
321,063	15,93
321,432	15,86
321,8	15,65
322,168	15,6
322,536	15,69
322,905	15,54
323,273	15,64
323,641	15,56
324,009	15,73
324,377	15,86
324,745	16,17
325,113	16,19
325,481	16,23
325,849	16,18
326,216	15,9
326,584	15,85
326,952	15,82
327,32	15,73
327,687	15,71
328,055	15,68
328,423	15,58
328,79	15,39
329,158	15,44
329,525	15,55
329,893	15,54
330,26	15,46
330,628	15,23
330,995	15,08
331,362	14,99
331,73	14,87
332,097	14,82
332,464	14,61
332,831	14,7
333,199	14,62
333,566	14,62
333,933	14,44
334,3	14,29
334,667	14,22
335,034	14,18
335,401	14,13
335,768	14,25
336,135	14,28
336,502	14,29
336,868	14,23
337,235	14,37
337,602	14,37
337,969	14,38
338,335	14,45
338,702	14,36
339,069	14,42
339,435	14,34
339,802	14,24
340,168	14,3
340,535	14,08
340,901	14,08
341,267	14,17
341,634	14,28
342	14,34
342,366	14,34
342,733	14,42
343,099	14,38
343,465	14,29
343,831	14,21
344,197	14,14
344,563	14,02
344,929	13,78
345,295	13,74
345,661	13,68
346,027	13,67
346,393	13,63
346,759	13,48
347,125	13,5
347,491	13,46
347,856	13,43
348,222	13,38
348,588	13,35
348,953	13,23
349,319	13,13
349,684	13,06
350,05	12,98
350,415	12,91
350,781	12,85
351,146	12,82
351,512	12,84
351,877	12,82
352,242	12,89
352,608	12,96
352,973	12,94
353,338	12,95
353,703	12,93
354,068	12,98
354,433	12,97
354,798	12,98
355,164	13,06
355,528	13,12
355,893	13,19
356,258	13,18
356,623	13,16
356,988	13,31
357,353	13,32
357,718	13,37
358,082	13,44
358,447	13,57
358,812	13,6
359,176	13,62
359,541	13,6
359,905	13,57
360,27	13,6
360,634	13,6
360,999	13,58
361,363	13,67
361,728	13,71
362,092	13,75
362,456	13,73
362,821	13,74
363,185	13,7
363,549	13,7
363,913	13,8
364,277	13,82
364,641	13,78
365,005	13,76
365,369	13,78
365,733	13,71
366,097	13,66
366,461	13,64
366,825	13,62
367,189	13,66
367,553	13,69
367,916	13,69
368,28	13,73
368,644	13,68
369,007	13,56
369,371	13,53
369,734	13,52
370,098	13,45
370,461	13,35
370,825	13,37
371,188	13,39
371,552	13,29
371,915	13,22
372,278	13,19
372,642	13,18
373,005	13,19
373,368	13,13
373,731	13,13
374,094	13,1
374,457	13,04
374,82	13,03
375,183	13,04
375,546	12,95
375,909	12,82
376,272	12,81
376,635	12,89
376,998	12,86
377,361	12,83
377,723	12,89
378,086	12,92
378,449	12,86
378,811	12,81
379,174	12,76
379,537	12,75
379,899	12,74
380,262	12,75
380,624	12,69
380,987	12,68
381,349	12,61
381,711	12,6
382,074	12,62
382,436	12,68
382,798	12,79
383,16	12,75
383,522	12,74
383,884	12,71
384,247	12,67
384,609	12,65
384,971	12,65
385,333	12,59
385,695	12,57
386,056	12,61
386,418	12,66
386,78	12,78
387,142	12,74
387,504	12,7
387,865	12,68
388,227	12,69
388,589	12,73
388,95	12,76
389,312	12,76
389,673	12,77
390,035	12,68
390,396	12,56
390,758	12,56
391,119	12,59
391,48	12,61
391,842	12,59
392,203	12,61
392,564	12,65
392,925	12,7
393,286	12,67
393,648	12,63
394,009	12,62
394,37	12,58
394,731	12,61
395,092	12,6
395,452	12,59
395,813	12,6
396,174	12,59
396,535	12,58
396,896	12,57
397,257	12,54
397,617	12,55
397,978	12,63
398,338	12,6
398,699	12,64
399,06	12,69
399,42	12,64
399,781	12,65
400,141	12,62
400,501	12,62
400,862	12,64
401,222	12,65
401,582	12,66
401,943	12,62
402,303	12,68
402,663	12,7
403,023	12,71
403,383	12,69
403,743	12,69
404,103	12,7
404,463	12,74
404,823	12,77
405,183	12,76
405,543	12,72
405,903	12,75
406,262	12,74
406,622	12,69
406,982	12,76
407,342	12,73
407,701	12,72
408,061	12,7
408,42	12,75
408,78	12,74
409,139	12,75
409,499	12,75
409,858	12,71
410,217	12,73
410,577	12,72
410,936	12,76
411,295	12,72
411,655	12,76
412,014	12,75
412,373	12,73
412,732	12,75
413,091	12,74
413,45	12,83
413,809	12,83
414,168	12,8
414,527	12,8
414,886	12,86
415,245	12,86
415,603	12,86
415,962	12,84
416,321	12,85
416,679	12,85
417,038	12,86
417,397	12,88
417,755	12,88
418,114	12,91
418,472	12,91
418,831	12,94
419,189	12,94
419,547	12,93
419,906	12,94
420,264	12,95
420,622	12,94
420,981	12,94
421,339	12,95
421,697	12,98
422,055	12,98
422,413	12,98
422,771	13,01
423,129	13,02
423,487	13,05
423,845	13,09
424,203	13,09
424,56	13,12
424,918	13,13
425,276	13,16
425,634	13,18
425,991	13,2
426,349	13,24
426,707	13,29
427,064	13,33
427,422	13,37
427,779	13,43
428,137	13,49
428,494	13,54
428,851	13,61
429,209	13,7
429,566	13,74
429,923	13,79
430,28	13,83
430,637	13,9
430,995	13,88
431,352	13,88
431,709	13,92
432,066	13,96
432,423	14,02
432,78	14,06
433,137	14,11
433,493	14,17
433,85	14,23
434,207	14,2
434,564	14,25
434,92	14,33
435,277	14,37
435,634	14,41
435,99	14,45
436,347	14,51
436,703	14,56
437,06	14,61
437,416	14,69
437,773	14,73
438,129	14,76
438,485	14,85
438,841	14,91
439,198	14,95
439,554	14,97
439,91	15
440,266	15,05
440,622	15,09
440,978	15,14
441,334	15,15
441,69	15,23
442,046	15,29
442,402	15,31
442,758	15,34
443,113	15,39
443,469	15,43
443,825	15,46
444,181	15,51
444,536	15,56
444,892	15,58
445,247	15,61
445,603	15,65
445,958	15,65
446,314	15,69
446,669	15,73
447,025	15,75
447,38	15,76
447,735	15,78
448,09	15,79
448,446	15,81
448,801	15,84
449,156	15,88
449,511	15,91
449,866	15,94
450,221	15,98
450,576	16,02
450,931	16,09
451,286	16,13
451,641	16,14
451,995	16,17
452,35	16,22
452,705	16,25
453,06	16,28
453,414	16,32
453,769	16,34
454,123	16,35
454,478	16,4
454,832	16,46
455,187	16,47
455,541	16,5
455,896	16,51
456,25	16,52
456,604	16,53
456,958	16,56
457,313	16,61
457,667	16,63
458,021	16,64
458,375	16,64
458,729	16,68
459,083	16,7
459,437	16,72
459,791	16,72
460,145	16,74
460,499	16,76
460,852	16,76
461,206	16,8
461,56	16,81
461,914	16,82
462,267	16,83
462,621	16,87
462,974	16,87
463,328	16,91
463,681	16,94
464,035	16,97
464,388	16,99
464,742	17
465,095	17,01
465,448	17,04
465,801	17,04
466,155	17,03
466,508	17,06
466,861	17,07
467,214	17,1
467,567	17,09
467,92	17,11
468,273	17,11
468,626	17,11
468,979	17,13
469,332	17,15
469,684	17,15
470,037	17,16
470,39	17,16
470,743	17,15
471,095	17,15
471,448	17,15
471,8	17,14
472,153	17,12
472,505	17,13
472,858	17,12
473,21	17,14
473,562	17,15
473,915	17,13
474,267	17,1
474,619	17,11
474,971	17,1
475,324	17,09
475,676	17,13
476,028	17,1
476,38	17,11
476,732	17,09
477,084	17,08
477,436	17,07
477,787	17,05
478,139	17,06
478,491	17,07
478,843	17,06
479,195	17,07
479,546	17,08
479,898	17,1
480,249	17,17
480,601	17,22
480,952	17,27
481,304	17,29
481,655	17,32
482,007	17,31
482,358	17,31
482,709	17,31
483,061	17,29
483,412	17,31
483,763	17,3
484,114	17,32
484,465	17,34
484,816	17,35
485,167	17,37
485,518	17,37
485,869	17,38
486,22	17,39
486,571	17,39
486,922	17,4
487,272	17,42
487,623	17,41
487,974	17,4
488,324	17,4
488,675	17,4
489,025	17,4
489,376	17,41
489,726	17,44
490,077	17,46
490,427	17,49
490,778	17,5
491,128	17,54
491,478	17,54
491,828	17,55
492,179	17,55
492,529	17,57
492,879	17,6
493,229	17,65
493,579	17,67
493,929	17,7
494,279	17,74
494,629	17,77
494,979	17,79
495,328	17,83
495,678	17,86
496,028	17,93
496,378	17,96
496,727	18,02
497,077	18,06
497,426	18,11
497,776	18,15
498,125	18,2
498,475	18,24
498,824	18,33
499,174	18,37
499,523	18,43
499,872	18,49
500,221	18,53
500,571	18,6
500,92	18,67
501,269	18,75
501,618	18,81
501,967	18,86
502,316	18,91
502,665	19
503,014	19,07
503,363	19,13
503,711	19,22
504,06	19,31
504,409	19,38
504,758	19,42
505,106	19,52
505,455	19,59
505,803	19,66
506,152	19,69
506,5	19,78
506,849	19,84
507,197	19,91
507,546	19,99
507,894	20,06
508,242	20,15
508,59	20,22
508,939	20,3
509,287	20,43
509,635	20,53
509,983	20,62
510,331	20,7
510,679	20,8
511,027	20,86
511,375	20,95
511,723	21,04
512,07	21,15
512,418	21,24
512,766	21,35
513,114	21,46
513,461	21,58
513,809	21,68
514,156	21,79
514,504	21,91
514,851	22,03
515,199	22,13
515,546	22,25
515,893	22,37
516,241	22,5
516,588	22,59
516,935	22,67
517,282	22,76
517,63	22,84
517,977	22,9
518,324	23
518,671	23,07
519,018	23,16
519,365	23,24
519,711	23,34
520,058	23,41
520,405	23,49
520,752	23,58
521,099	23,67
521,445	23,79
521,792	23,88
522,138	24,01
522,485	24,13
522,832	24,26
523,178	24,36
523,524	24,45
523,871	24,55
524,217	24,68
524,563	24,81
524,91	25
525,256	25,19
525,602	25,36
525,948	25,49
526,294	25,58
526,64	25,64
526,986	25,68
527,332	25,73
527,678	25,77
528,024	25,83
528,37	25,88
528,716	25,91
529,061	25,96
529,407	26,02
529,753	26,09
530,098	26,15
530,444	26,22
530,789	26,26
531,135	26,3
531,48	26,33
531,826	26,37
532,171	26,42
532,516	26,45
532,862	26,48
533,207	26,51
533,552	26,56
533,897	26,61
534,242	26,66
534,587	26,71
534,932	26,77
535,277	26,79
535,622	26,81
535,967	26,87
536,312	26,9
536,657	26,93
537,001	26,96
537,346	27
537,691	27,01
538,035	27,08
538,38	27,13
538,724	27,17
539,069	27,2
539,413	27,23
539,758	27,24
540,102	27,27
540,446	27,29
540,791	27,3
541,135	27,32
541,479	27,33
541,823	27,35
542,167	27,36
542,512	27,4
542,856	27,4
543,2	27,42
543,543	27,42
543,887	27,43
544,231	27,45
544,575	27,47
544,919	27,51
545,262	27,51
545,606	27,55
545,95	27,57
546,293	27,58
546,637	27,56
546,98	27,61
547,324	27,6
547,667	27,66
548,011	27,68
548,354	27,7
548,697	27,72
549,04	27,74
549,384	27,75
549,727	27,74
550,07	27,79
550,413	27,79
550,756	27,82
551,099	27,87
551,442	27,89
551,785	27,91
552,128	27,88
552,47	27,87
552,813	27,87
553,156	27,84
553,499	27,87
553,841	27,87
554,184	27,87
554,526	27,9
554,869	27,87
555,211	27,85
555,554	27,83
555,896	27,81
556,238	27,79
556,581	27,77
556,923	27,75
557,265	27,7
557,607	27,67
557,949	27,67
558,291	27,64
558,633	27,58
558,975	27,52
559,317	27,49
559,659	27,49
560,001	27,44
560,343	27,43
560,685	27,39
561,026	27,35
561,368	27,29
561,71	27,23
562,051	27,21
562,393	27,23
562,734	27,2
563,076	27,17
563,417	27,13
563,759	27,11
564,1	27,06
564,441	27,07
564,782	27,03
565,124	26,98
565,465	26,93
565,806	26,92
566,147	26,91
566,488	26,89
566,829	26,85
567,17	26,81
567,511	26,74
567,851	26,72
568,192	26,68
568,533	26,64
568,874	26,61
569,214	26,53
569,555	26,44
569,895	26,37
570,236	26,36
570,576	26,29
570,917	26,24
571,257	26,2
571,598	26,13
571,938	26,1
572,278	26,04
572,618	25,99
572,959	25,95
573,299	25,91
573,639	25,85
573,979	25,83
574,319	25,76
574,659	25,75
574,999	25,68
575,339	25,67
575,678	25,62
576,018	25,57
576,358	25,53
576,698	25,51
577,037	25,48
577,377	25,42
577,716	25,39
578,056	25,36
578,395	25,31
578,735	25,25
579,074	25,19
579,413	25,17
579,753	25,14
580,092	25,07
580,431	25,02
580,77	25,01
581,109	24,96
581,448	24,94
581,787	24,89
582,126	24,83
582,465	24,76
582,804	24,73
583,143	24,71
583,482	24,65
583,82	24,61
584,159	24,56
584,498	24,52
584,836	24,51
585,175	24,47
585,514	24,4
585,852	24,36
586,19	24,34
586,529	24,29
586,867	24,25
587,205	24,22
587,544	24,21
587,882	24,18
588,22	24,13
588,558	24,11
588,896	24,1
589,234	24,1
589,572	24,08
589,91	24,06
590,248	24
590,586	24,02
590,924	23,98
591,262	23,97
591,599	23,98
591,937	23,96
592,275	23,91
592,612	23,91
592,95	23,89
593,287	23,91
593,625	23,87
593,962	23,83
594,299	23,83
594,637	23,82
594,974	23,82
595,311	23,84
595,648	23,86
595,985	23,86
596,322	23,88
596,659	23,92
596,996	23,9
597,333	23,86
597,67	23,82
598,007	23,84
598,344	23,84
598,681	23,86
599,017	23,81
599,354	23,79
599,691	23,82
600,027	23,84
600,364	23,78
600,7	23,79
601,037	23,81
601,373	23,8
601,71	23,77
602,046	23,72
602,382	23,69
602,718	23,69
603,054	23,66
603,391	23,6
603,727	23,54
604,063	23,55
604,399	23,53
604,735	23,52
605,071	23,47
605,406	23,45
605,742	23,41
606,078	23,36
606,414	23,31
606,749	23,25
607,085	23,18
607,421	23,17
607,756	23,13
608,092	23,07
608,427	23,01
608,762	22,98
609,098	22,95
609,433	22,9
609,768	22,81
610,104	22,78
610,439	22,73
610,774	22,72
611,109	22,62
611,444	22,64
611,779	22,6
612,114	22,55
612,449	22,53
612,784	22,47
613,118	22,48
613,453	22,49
613,788	22,42
614,123	22,4
614,457	22,36
614,792	22,3
615,126	22,28
615,461	22,24
615,795	22,2
616,13	22,17
616,464	22,12
616,798	22,08
617,132	22,04
617,467	22,05
617,801	22
618,135	22,04
618,469	21,99
618,803	21,99
619,137	22
619,471	21,95
619,805	21,87
620,139	21,83
620,472	21,84
620,806	21,86
621,14	21,8
621,473	21,77
621,807	21,76
622,141	21,78
622,474	21,79
622,808	21,81
623,141	21,83
623,474	21,87
623,808	21,89
624,141	21,85
624,474	21,85
624,807	21,8
625,141	21,75
625,474	21,76
625,807	21,76
626,14	21,72
626,473	21,7
626,806	21,77
627,138	21,76
627,471	21,67
627,804	21,65
628,137	21,72
628,469	21,7
628,802	21,68
629,135	21,65
629,467	21,62
629,8	21,57
630,132	21,52
630,465	21,48
630,797	21,46
631,129	21,44
631,461	21,43
631,794	21,52
632,126	21,46
632,458	21,44
632,79	21,39
633,122	21,43
633,454	21,41
633,786	21,33
634,118	21,33
634,45	21,39
634,781	21,4
635,113	21,35
635,445	21,35
635,777	21,36
636,108	21,3
636,44	21,31
636,771	21,29
637,103	21,26
637,434	21,25
637,765	21,23
638,097	21,38
638,428	21,28
638,759	21,17
639,09	21,2
639,422	21,19
639,753	21,19
640,084	21,09
640,415	21,06
640,746	21,13
641,077	21,03
641,407	20,92
641,738	20,86
642,069	20,77
642,4	20,73
642,73	20,67
643,061	20,64
643,392	20,58
643,722	20,59
644,053	20,57
644,383	20,52
644,713	20,42
645,044	20,21
645,374	20,27
645,704	20,25
646,034	20,18
646,365	20,11
646,695	20,13
647,025	20,16
647,355	20,09
647,685	19,97
648,015	19,97
648,344	19,96
648,674	19,97
649,004	19,96
649,334	19,94
649,663	19,9
649,993	19,93
650,323	19,86
650,652	19,74
650,982	19,68
651,311	19,64
651,64	19,64
651,97	19,58
652,299	19,5
652,628	19,46
652,958	19,41
653,287	19,48
653,616	19,3
653,945	19,22
654,274	19,26
654,603	19,2
654,932	19,17
655,261	19,1
655,589	19
655,918	18,92
656,247	18,83
656,576	18,81
656,904	18,68
657,233	18,71
657,561	18,63
657,89	18,6
658,218	18,58
658,547	18,53
658,875	18,52
659,203	18,49
659,532	18,4
659,86	18,36
660,188	18,17
660,516	18,17
660,844	18,13
661,172	18,02
661,5	17,95
661,828	17,84
662,156	17,76
662,484	17,75
662,811	17,69
663,139	17,62
663,467	17,53
663,794	17,49
664,122	17,35
664,45	17,33
664,777	17,29
665,104	17,31
665,432	17,18
665,759	17,05
666,086	17
666,414	16,96
666,741	16,93
667,068	16,93
667,395	16,87
667,722	16,85
668,049	16,83
668,376	16,83
668,703	16,83
669,03	16,83
669,357	16,78
669,683	16,7
670,01	16,72
670,337	16,63
670,663	16,6
670,99	16,53
671,317	16,51
671,643	16,46
671,969	16,29
672,296	16,33
672,622	16,38
672,948	16,34
673,275	16,34
673,601	16,31
673,927	16,24
674,253	16,25
674,579	16,2
674,905	16,18
675,231	16,18
675,557	16,16
675,883	16,21
676,209	16,22
676,534	16,18
676,86	16,14
677,186	16,18
677,511	16,22
677,837	16,26
678,162	16,26
678,488	16,23
678,813	16,31
679,139	16,31
679,464	16,27
679,789	16,28
680,114	16,31
680,44	16,37
680,765	16,45
681,09	16,52
681,415	16,57
681,74	16,64
682,065	16,66
682,39	16,72
682,714	16,8
683,039	16,75
683,364	16,88
683,689	16,88
684,013	16,93
684,338	16,96
684,662	17,06
684,987	17,13
685,311	17,28
685,636	17,33
685,96	17,42
686,284	17,57
686,608	17,7
686,933	17,86
687,257	18
687,581	18,13
687,905	18,23
688,229	18,36
688,553	18,48
688,877	18,64
689,201	18,77
689,524	18,8
689,848	19,05
690,172	19,19
690,496	19,51
690,819	19,74
691,143	19,92
691,466	20,1
691,79	20,41
692,113	20,64
692,436	20,77
692,76	21
693,083	21,15
693,406	21,4
693,729	21,6
694,053	21,74
694,376	21,92
694,699	22,14
695,022	22,46
695,344	22,75
695,667	23,14
695,99	23,49
696,313	23,75
696,636	23,92
696,958	24,22
697,281	24,35
697,604	24,6
697,926	24,81
698,249	25,09
698,571	25,17
698,893	25,3
699,216	25,55
699,538	25,81
699,86	25,99
700,182	26,13
700,504	26,33
700,827	26,67
701,149	26,93
701,471	27,17
701,793	27,34
702,114	27,62
702,436	27,88
702,758	28,15
703,08	28,58
703,401	29,04
703,723	29,42
704,045	29,74
704,366	29,98
704,688	30,33
705,009	30,52
705,331	30,92
705,652	31,18
705,973	31,5
706,294	31,73
706,616	32,16
706,937	32,55
707,258	32,86
707,579	33,04
707,9	33,36
708,221	33,74
708,542	34,12
708,863	34,39
709,183	34,62
709,504	34,82
709,825	35,11
710,145	35,33
710,466	35,53
710,787	35,93
711,107	36,27
711,427	36,56
711,748	36,94
712,068	37,29
712,388	37,68
712,709	37,94
713,029	38,38
713,349	38,62
713,669	38,82
713,989	39,15
714,309	39,44
714,629	39,72
714,949	39,96
715,269	40,18
715,589	40,45
715,908	40,82
716,228	41,21
716,548	41,53
716,867	41,81
717,187	42,07
717,506	42,31
717,826	42,63
718,145	42,92
718,465	43,19
718,784	43,46
719,103	43,8
719,422	44,12
719,741	44,34
720,061	44,79
720,38	45,15
720,699	45,37
721,018	45,8
721,336	46,06
721,655	46,54
721,974	46,96
722,293	47,31
722,612	47,7
722,93	47,99
723,249	48,21
723,567	48,72
723,886	49,17
724,204	49,64
724,523	49,98
724,841	50,3
725,159	50,73
725,477	50,96
725,796	51,24
726,114	51,6
726,432	52,07
726,75	52,24
727,068	52,5
727,386	52,9
727,704	53,21
728,022	53,55
728,339	53,81
728,657	54,2
728,975	54,7
729,292	55,05
729,61	55,49
729,928	55,77
730,245	55,92
730,562	56,3
730,88	56,55
731,197	56,85
731,514	57,11
731,832	57,39
732,149	57,73
732,466	58,12
732,783	58,4
733,1	58,55
733,417	58,92
733,734	59,33
734,051	59,6
734,368	59,86
734,684	60,12
735,001	60,38
735,318	60,58
735,634	60,79
735,951	61,12
736,268	61,19
736,584	61,62
736,9	61,96
737,217	62,16
737,533	62,4
737,849	62,9
738,166	63,34
738,482	63,41
738,798	63,66
739,114	64
739,43	64,11
739,746	64,33
740,062	64,53
740,378	64,89
740,693	65,03
741,009	65,15
741,325	65,26
741,641	65,32
741,956	65,47
742,272	65,63
742,587	65,61
742,903	65,93
743,218	66,07
743,533	66,25
743,849	66,41
744,164	66,61
744,479	66,61
744,794	66,57
745,109	66,88
745,424	67,01
745,739	67,01
746,054	67,29
746,369	67,51
746,684	67,75
746,999	67,71
747,313	67,84
747,628	68,06
747,943	68,39
748,257	68,6
748,572	68,71
748,886	68,74
749,201	68,84
749,515	68,96
749,829	69,23
750,144	69,42
750,458	69,6
750,772	69,69
751,086	69,86
751,4	69,96
751,714	70
752,028	70,24
752,342	70,31
752,656	70,38
752,97	70,37
753,284	70,55
753,597	70,66
753,911	70,89
754,225	70,99
754,538	71,05
754,852	71,25
755,165	71,34
755,478	71,24
755,792	71,42
756,105	71,4
756,418	71,32
756,731	71,33
757,045	71,46
757,358	71,5
757,671	71,36
757,984	71,38
758,297	71,5
758,609	71,34
758,922	71,16
759,235	71,31
759,548	71,48
759,86	71,43
760,173	71,44
760,486	71,53
760,798	71,61
761,111	71,51
761,423	71,32
761,735	71,43
762,048	71,51
762,36	71,48
762,672	71,52
762,984	71,61
763,296	71,51
763,608	71,49
763,92	71,59
764,232	71,48
764,544	71,75
764,856	71,68
765,168	71,67
765,48	71,85
765,791	71,84
766,103	71,65
766,414	71,62
766,726	71,74
767,037	71,67
767,349	71,62
767,66	71,75
767,972	72,01
768,283	72,02
768,594	71,98
768,905	72
769,216	72,31
769,527	72,31
769,838	72,73
770,149	72,8
770,46	72,75
770,771	73,19
771,082	72,98
771,393	73,38
771,703	73,68
772,014	73,45
772,324	73,51
772,635	73,59
772,945	73,67
773,256	73,47
773,566	73,55
773,877	73,63
774,187	73,59
774,497	73,28
774,807	73,08
775,117	73,26
775,427	73,35
775,737	72,94
776,047	72,52
776,357	72,35
776,667	72,16
776,977	72,05
777,287	71,85
777,596	71,71
777,906	71,33
778,216	71,21
778,525	71,46
778,835	71,52
779,144	71,86
779,453	71,63
779,763	71,77
780,072	71,64
780,381	71,56
780,69	71,76
781	71,82
781,309	71,98
781,618	71,92
781,927	71,95
782,235	71,97
782,544	72,27
782,853	72,1
783,162	71,82
783,471	71,85
783,779	72,03
784,088	72,13
784,396	72,1
784,705	72,27
785,013	72,02
785,322	71,8
785,63	71,67
785,938	71,76
786,246	71,76
786,554	71,85
786,863	71,68
787,171	71,71
787,479	71,81
787,787	71,67
788,094	72,01
788,402	71,73
788,71	72,01
789,018	72,12
789,326	72,22
789,633	72,44
789,941	72,35
790,248	72,09
790,556	71,84
790,863	71,96
791,171	71,82
791,478	72,16
791,785	72,22
792,092	72,32
792,399	72,53
792,707	72,33
793,014	72,09
793,321	72,28
793,628	72,05
793,934	72,17
794,241	72,16
794,548	72,05
794,855	72,26
795,161	72
795,468	71,78
795,775	71,79
796,081	71,62
796,388	72,02
796,694	72,17
797	72,3
797,307	72,53
797,613	72,91
797,919	72,72
798,225	72,77
798,531	72,65
798,837	72,44
799,143	72,86
799,449	73,17
799,755	73,06
800,061	73,15
800,367	73,09
800,672	73,16
800,978	72,93
801,284	73,12
801,589	73,49
801,895	73,82
802,2	73,77
802,506	74,29
802,811	74,24
803,116	74,2
803,421	74,4
803,727	74,3
804,032	73,97
804,337	73,86
804,642	73,9
804,947	74,01
805,252	74,36
805,556	73,9
805,861	74,09
806,166	73,93
806,471	73,93
806,775	74,07
807,08	74,14
807,384	74,2
807,689	73,77
807,993	73,14
808,298	73,02
808,602	73,11
808,906	72,94
809,211	72,71
809,515	72,98
809,819	72,91
810,123	72,9
810,427	72,76
810,731	73,36
811,035	73,43
811,338	73,69
811,642	73,12
811,946	73,3
812,25	73,37
812,553	73,69
812,857	73,68
813,16	73,68
813,464	74,21
813,767	74,9
814,07	75,05
814,374	75,38
814,677	75,74
814,98	75,34
815,283	75,03
815,586	74,76
815,889	74,49
816,192	74,78
816,495	74,93
816,798	74,85
817,101	74,3
817,404	73,98
817,706	73,47
818,009	73,68
818,312	73,99
818,614	73,73
818,917	73,56
819,219	73,46
819,521	73,27
819,824	73,06
820,126	72,87
820,428	73,33
820,73	73,41
821,032	73,48
821,334	73,66
821,636	73,68
821,938	73,87
822,24	73,84
822,542	73,75
822,844	73,64
823,145	73,59
823,447	73,61
823,749	73,66
824,05	73,65
824,352	73,7
824,653	73,63
824,955	73,6
825,256	73,61
825,557	73,6
825,858	73,68
826,16	73,83
826,461	73,9
826,762	73,84
827,063	73,83
827,364	73,74
827,665	73,56
827,965	73,62
828,266	73,41
828,567	73,56
828,868	73,72
829,168	73,89
829,469	74,02
829,769	74,05
830,07	74,09
830,37	74,14
830,67	74,1
830,971	74,09
831,271	74,29
831,571	74,33
831,871	74,71
832,171	74,91
832,471	74,52
832,771	74,84
833,071	74,56
833,371	74,48
833,671	74,44
833,971	74,9
834,27	74,98
834,57	75
834,869	74,8
835,169	74,84
835,468	74,69
835,768	74,76
836,067	74,64
836,367	74,42
836,666	74,54
836,965	74,59
837,264	74,61
837,563	74,53
837,862	74,66
838,161	74,38
838,46	74,09
838,759	74,21
839,058	73,91
839,356	73,95
839,655	74,37
839,954	74,76
840,252	74,04
840,551	73,5
840,849	73,25
841,148	72,95
841,446	72,47
841,744	72,34
842,043	72,2
842,341	72,18
842,639	72,46
842,937	72,75
843,235	72,78
843,533	73,15
843,831	72,8
844,129	72,82
844,427	73,08
844,724	72,87
845,022	72,83
845,32	71,67
845,617	70,44
845,915	69,61
846,212	68,74
846,51	69,22
846,807	68,19
847,104	68,68
847,402	69,6
847,699	69,01
847,996	68
848,293	67,84
848,59	67,3
848,887	67,33
849,184	66,59
849,481	65,6
849,778	65,11
850,074	65,71
850,371	65,17
850,668	64,39
850,964	64,15
851,261	63,76
851,557	63,86
851,854	64,93
852,15	64,63
852,446	64,25
852,743	65,15
853,039	67,54
853,335	67,68
853,631	66,45
853,927	67,93
854,223	70,35
854,519	70,21
854,815	70,7
855,111	71,57
855,406	71,66
855,702	71,73
855,998	71,51
856,293	70,68
856,589	70,29
856,884	70,55
857,18	70,82
857,475	72,16
857,77	74,46
858,066	75,5
858,361	75,91
858,656	75,09
858,951	74,23
859,246	72,26
859,541	71,6
859,836	73,5
860,131	70,48
860,426	69
860,72	70,31
861,015	72,63
861,31	72,57
861,604	74,34
861,899	76,24
862,193	76,35
862,487	76,24
862,782	77,98
863,076	78,76
863,37	80,09
863,664	80,65
863,959	80,44
864,253	82,25
864,547	83,7
864,841	84,39
865,135	83,12
865,428	82,92
865,722	82,99
866,016	81,36
866,31	81,97
866,603	82,6
866,897	82,5
867,19	81,97
867,484	81,88
867,777	79,75
868,07	76,81
868,364	76,84
868,657	78,33
868,95	79,81
869,243	78,71
869,536	77,2
869,829	77,05
870,122	77,41
870,415	73,96
870,708	71,95
871	70,76
871,293	72,78
871,586	73,55
871,878	73,34
872,171	74,22
872,463	77,45
872,756	75,54
873,048	75,37
873,341	74,21
873,633	73,55
873,925	74,02
874,217	76,42
874,509	77,11
874,801	76,88
875,093	74,14
875,385	74,71
875,677	75,72
875,969	73,71
