Data from palm_tumJ_d_45_25_Reflection_00001.txt Node
Date: Fri Feb 11 15:27:19 ART 2022
User: Nati
Spectrometer: USB2E3644
Trigger mode: 4
Integration Time (sec): 3,520000E-1
Scans to average: 10
Electric dark correction enabled: true
Nonlinearity correction enabled: false
Boxcar width: 10
XAxis mode: Wavelengths
Number of Pixels in Spectrum: 2048
>>>>>Begin Spectral Data<<<<<
178,315	58,6
178,696	53,5
179,076	68,01
179,457	62,88
179,838	83,24
180,218	18,69
180,599	-111,27
180,979	-42,11
181,36	142,64
181,74	82,45
182,121	73,82
182,501	74,93
182,881	82,86
183,262	87,23
183,642	82,46
184,022	73,54
184,402	67,29
184,783	61,75
185,163	64,24
185,543	71,86
185,923	73,28
186,303	75,79
186,683	75,06
187,063	79,38
187,443	80,89
187,823	83,24
188,203	83,37
188,583	82,51
188,963	83,11
189,343	82,45
189,723	86,7
190,102	87,69
190,482	88,57
190,862	90,31
191,242	89,98
191,621	94,22
192,001	94,54
192,38	93,3
192,76	94,18
193,14	97,41
193,519	100,16
193,898	101,06
194,278	100,6
194,657	101,03
195,037	101,16
195,416	100,98
195,795	102,87
196,175	103,3
196,554	105,33
196,933	108,48
197,312	108,61
197,692	106,83
198,071	106,76
198,45	107,21
198,829	109,25
199,208	110,64
199,587	109,15
199,966	107,82
200,345	107,66
200,724	106,9
201,103	105,35
201,482	103,69
201,86	102,18
202,239	103,95
202,618	105,28
202,997	105,75
203,375	105,78
203,754	103,85
204,133	103,02
204,511	101,74
204,89	99,11
205,269	99,26
205,647	100,89
206,026	101,65
206,404	102,41
206,782	100,6
207,161	101,99
207,539	101,7
207,918	102,52
208,296	101,11
208,674	100,48
209,052	100
209,431	100,32
209,809	99,51
210,187	98,64
210,565	100,35
210,943	98,93
211,321	100,17
211,699	101,95
212,077	101,81
212,455	100,89
212,833	101,09
213,211	100,18
213,589	98,3
213,967	98,65
214,345	99,05
214,722	101,7
215,1	100,75
215,478	102,05
215,855	105,23
216,233	108,3
216,611	110,48
216,988	112,22
217,366	111,84
217,743	112,24
218,121	110,31
218,498	108,9
218,876	111,03
219,253	111,16
219,631	110,7
220,008	108,57
220,385	109,37
220,762	109,75
221,14	111,59
221,517	109,56
221,894	105,84
222,271	105,45
222,648	104,71
223,025	106,92
223,402	103,73
223,78	101,06
224,157	99,16
224,533	98,12
224,91	98,72
225,287	100,22
225,664	103,14
226,041	105,67
226,418	107,37
226,795	107,29
227,171	107,85
227,548	108,09
227,925	110,57
228,301	113,35
228,678	116,13
229,055	121,52
229,431	127,19
229,808	131,39
230,184	133
230,561	135,36
230,937	139,08
231,313	138,46
231,69	137,55
232,066	144,17
232,442	148,61
232,819	147,1
233,195	141,44
233,571	143,92
233,947	144,77
234,323	145,34
234,699	151,72
235,075	154,83
235,451	156,15
235,827	159,34
236,203	162,27
236,579	160,93
236,955	158,09
237,331	163,23
237,707	168,99
238,083	178,21
238,459	197,89
238,834	231,3
239,21	295,69
239,586	373,49
239,961	441,65
240,337	568,19
240,713	917,12
241,088	4266,04
241,464	-3568,85
241,839	-2020,39
242,215	-1306,13
242,59	-636,62
242,965	-231,21
243,341	-107,76
243,716	-69,46
244,091	-45,13
244,467	-32,2
244,842	-24,21
245,217	-20,08
245,592	-18,81
245,967	-21,24
246,343	-22,58
246,718	-21,83
247,093	-24,33
247,468	-25,48
247,843	-24,91
248,218	-22,66
248,593	-18,34
248,967	-15,79
249,342	-12,02
249,717	-10,7
250,092	-9,41
250,467	-11,25
250,841	-13,31
251,216	-14,42
251,591	-14,03
251,965	-16,94
252,34	-22,33
252,714	-29,52
253,089	-36,15
253,463	-37,36
253,838	-30,49
254,212	-24,87
254,587	-17,61
254,961	-13,2
255,335	-7,5
255,71	-2,04
256,084	4,96
256,458	8,04
256,832	10,54
257,206	11,12
257,581	12,69
257,955	13,14
258,329	13,93
258,703	15,28
259,077	15,47
259,451	14,59
259,825	14,28
260,199	14,34
260,572	15,55
260,946	16,83
261,32	17,43
261,694	17,08
262,068	17,31
262,441	16,9
262,815	17,16
263,189	17,45
263,562	16,62
263,936	15,37
264,309	14,18
264,683	12,42
265,056	12,42
265,43	11,69
265,803	12,1
266,176	12,89
266,55	12,79
266,923	12,43
267,296	13,07
267,67	13,72
268,043	14,81
268,416	15,62
268,789	16,32
269,162	16,84
269,535	17,42
269,908	17,28
270,281	17,72
270,654	18,11
271,027	17,7
271,4	18,18
271,773	17,82
272,146	17,45
272,519	17,76
272,891	17,57
273,264	17,42
273,637	16,9
274,01	16,54
274,382	16,58
274,755	17,1
275,127	17,22
275,5	16,8
275,872	16,41
276,245	16,27
276,617	15,71
276,99	15,81
277,362	16,17
277,734	16,2
278,107	16,28
278,479	16,22
278,851	16,18
279,223	16,65
279,596	17,29
279,968	17,25
280,34	17,09
280,712	17
281,084	17,39
281,456	18
281,828	18,45
282,2	18,96
282,572	18,71
282,944	19,52
283,315	20,24
283,687	20,71
284,059	20,57
284,431	20,49
284,802	20,19
285,174	20,16
285,546	20,37
285,917	20,55
286,289	21,03
286,66	21,28
287,032	20,85
287,403	20,69
287,775	21,07
288,146	20,9
288,518	20,75
288,889	20,69
289,26	20,89
289,632	21,33
290,003	21,13
290,374	21,41
290,745	20,98
291,116	20,5
291,487	20,07
291,858	20,03
292,229	20,22
292,6	20,53
292,971	20,36
293,342	20,8
293,713	20,84
294,084	20,59
294,455	20,79
294,826	21,06
295,196	20,99
295,567	20,96
295,938	21,28
296,308	21,6
296,679	21,51
297,05	21,51
297,42	21,24
297,791	21,1
298,161	20,63
298,532	20,42
298,902	20,54
299,272	21,01
299,643	21,11
300,013	21,62
300,383	21,67
300,754	21,77
301,124	21,31
301,494	21,21
301,864	21,42
302,234	21,05
302,604	20,89
302,974	20,91
303,344	20,66
303,714	20,54
304,084	20,44
304,454	20,6
304,824	20,6
305,194	20,38
305,563	20,57
305,933	21,05
306,303	21,13
306,673	21,13
307,042	20,7
307,412	20,71
307,781	20,67
308,151	20,55
308,521	20,44
308,89	20,57
309,259	20,49
309,629	20,21
309,998	20,44
310,368	20,66
310,737	20,94
311,106	21,06
311,475	21,12
311,845	21,02
312,214	20,75
312,583	20,61
312,952	20,68
313,321	20,61
313,69	20,44
314,059	20,37
314,428	20,27
314,797	20,37
315,166	20,16
315,535	19,86
315,904	20,09
316,272	20,09
316,641	19,83
317,01	19,77
317,379	19,89
317,747	19,86
318,116	19,54
318,484	18,95
318,853	18,94
319,221	18,88
319,59	18,98
319,958	19,13
320,327	19,22
320,695	19,01
321,063	18,92
321,432	18,86
321,8	18,97
322,168	19,11
322,536	19,09
322,905	19,21
323,273	19,09
323,641	18,98
324,009	18,91
324,377	19,05
324,745	19,24
325,113	19,07
325,481	19,01
325,849	19,33
326,216	19,79
326,584	19,94
326,952	20,25
327,32	20,29
327,687	20,6
328,055	20,67
328,423	20,85
328,79	20,92
329,158	21,14
329,525	21,16
329,893	21,05
330,26	20,97
330,628	21,01
330,995	21,17
331,362	21,08
331,73	20,98
332,097	20,97
332,464	20,83
332,831	20,72
333,199	20,63
333,566	20,54
333,933	20,22
334,3	19,94
334,667	19,61
335,034	19,56
335,401	19,45
335,768	19,36
336,135	19,38
336,502	19,34
336,868	19,23
337,235	19,13
337,602	19,24
337,969	19,41
338,335	19,45
338,702	19,43
339,069	19,41
339,435	19,52
339,802	19,55
340,168	19,69
340,535	19,8
340,901	19,9
341,267	19,74
341,634	19,8
342	19,84
342,366	19,96
342,733	20,03
343,099	19,99
343,465	19,95
343,831	19,96
344,197	19,95
344,563	20,02
344,929	20,05
345,295	20
345,661	20,02
346,027	20,05
346,393	20,01
346,759	19,8
347,125	19,72
347,491	19,66
347,856	19,69
348,222	19,68
348,588	19,61
348,953	19,68
349,319	19,8
349,684	19,8
350,05	19,7
350,415	19,65
350,781	19,63
351,146	19,62
351,512	19,52
351,877	19,66
352,242	19,7
352,608	19,7
352,973	19,74
353,338	19,7
353,703	19,6
354,068	19,61
354,433	19,79
354,798	19,82
355,164	19,81
355,528	19,59
355,893	19,57
356,258	19,59
356,623	19,52
356,988	19,47
357,353	19,57
357,718	19,59
358,082	19,51
358,447	19,48
358,812	19,59
359,176	19,66
359,541	19,56
359,905	19,5
360,27	19,45
360,634	19,55
360,999	19,56
361,363	19,62
361,728	19,66
362,092	19,71
362,456	19,76
362,821	19,88
363,185	19,96
363,549	19,94
363,913	19,94
364,277	20,04
364,641	20,03
365,005	20
365,369	20,02
365,733	20,09
366,097	20,08
366,461	20,02
366,825	19,92
367,189	19,92
367,553	19,89
367,916	19,97
368,28	19,91
368,644	19,88
369,007	19,91
369,371	19,94
369,734	19,92
370,098	19,96
370,461	19,91
370,825	19,89
371,188	19,94
371,552	19,98
371,915	19,97
372,278	19,98
372,642	20,03
373,005	20,11
373,368	20,13
373,731	20,25
374,094	20,25
374,457	20,35
374,82	20,41
375,183	20,52
375,546	20,56
375,909	20,59
376,272	20,65
376,635	20,66
376,998	20,61
377,361	20,68
377,723	20,67
378,086	20,69
378,449	20,79
378,811	20,89
379,174	20,88
379,537	20,87
379,899	20,94
380,262	20,97
380,624	20,94
380,987	20,96
381,349	20,92
381,711	21,01
382,074	21,01
382,436	21,03
382,798	21,06
383,16	20,9
383,522	20,8
383,884	20,79
384,247	20,81
384,609	20,84
384,971	20,81
385,333	20,81
385,695	20,85
386,056	20,8
386,418	20,72
386,78	20,86
387,142	20,79
387,504	20,74
387,865	20,7
388,227	20,73
388,589	20,74
388,95	20,77
389,312	20,71
389,673	20,8
390,035	20,74
390,396	20,67
390,758	20,69
391,119	20,75
391,48	20,7
391,842	20,68
392,203	20,68
392,564	20,71
392,925	20,72
393,286	20,65
393,648	20,66
394,009	20,71
394,37	20,62
394,731	20,68
395,092	20,71
395,452	20,73
395,813	20,73
396,174	20,69
396,535	20,7
396,896	20,7
397,257	20,66
397,617	20,69
397,978	20,79
398,338	20,78
398,699	20,83
399,06	20,97
399,42	20,94
399,781	20,98
400,141	20,96
400,501	21
400,862	21,1
401,222	21,07
401,582	21,1
401,943	21,11
402,303	21,12
402,663	21,1
403,023	21,12
403,383	21,14
403,743	21,18
404,103	21,21
404,463	21,25
404,823	21,29
405,183	21,31
405,543	21,32
405,903	21,39
406,262	21,38
406,622	21,34
406,982	21,39
407,342	21,4
407,701	21,42
408,061	21,44
408,42	21,46
408,78	21,56
409,139	21,57
409,499	21,6
409,858	21,67
410,217	21,75
410,577	21,78
410,936	21,84
411,295	21,9
411,655	21,9
412,014	21,94
412,373	21,94
412,732	21,89
413,091	21,86
413,45	21,9
413,809	21,92
414,168	21,9
414,527	21,87
414,886	21,89
415,245	21,86
415,603	21,81
415,962	21,78
416,321	21,78
416,679	21,76
417,038	21,77
417,397	21,77
417,755	21,76
418,114	21,78
418,472	21,78
418,831	21,78
419,189	21,8
419,547	21,79
419,906	21,8
420,264	21,83
420,622	21,88
420,981	21,93
421,339	21,96
421,697	22,01
422,055	22,1
422,413	22,12
422,771	22,19
423,129	22,26
423,487	22,31
423,845	22,39
424,203	22,43
424,56	22,5
424,918	22,55
425,276	22,64
425,634	22,71
425,991	22,78
426,349	22,85
426,707	22,92
427,064	23
427,422	23,09
427,779	23,22
428,137	23,28
428,494	23,38
428,851	23,49
429,209	23,53
429,566	23,57
429,923	23,65
430,28	23,67
430,637	23,72
430,995	23,74
431,352	23,75
431,709	23,8
432,066	23,87
432,423	23,93
432,78	23,98
433,137	24
433,493	24,02
433,85	24,11
434,207	24,1
434,564	24,13
434,92	24,19
435,277	24,18
435,634	24,2
435,99	24,18
436,347	24,2
436,703	24,25
437,06	24,27
437,416	24,29
437,773	24,31
438,129	24,31
438,485	24,38
438,841	24,39
439,198	24,38
439,554	24,36
439,91	24,38
440,266	24,37
440,622	24,39
440,978	24,41
441,334	24,38
441,69	24,41
442,046	24,42
442,402	24,41
442,758	24,43
443,113	24,45
443,469	24,48
443,825	24,5
444,181	24,53
444,536	24,57
444,892	24,61
445,247	24,66
445,603	24,7
445,958	24,7
446,314	24,72
446,669	24,79
447,025	24,83
447,38	24,86
447,735	24,89
448,09	24,92
448,446	24,93
448,801	24,97
449,156	25
449,511	25,05
449,866	25,1
450,221	25,16
450,576	25,23
450,931	25,29
451,286	25,36
451,641	25,4
451,995	25,47
452,35	25,51
452,705	25,52
453,06	25,56
453,414	25,6
453,769	25,62
454,123	25,6
454,478	25,62
454,832	25,62
455,187	25,58
455,541	25,59
455,896	25,59
456,25	25,54
456,604	25,54
456,958	25,51
457,313	25,52
457,667	25,53
458,021	25,54
458,375	25,56
458,729	25,56
459,083	25,55
459,437	25,55
459,791	25,54
460,145	25,57
460,499	25,57
460,852	25,55
461,206	25,58
461,56	25,59
461,914	25,6
462,267	25,6
462,621	25,63
462,974	25,66
463,328	25,68
463,681	25,73
464,035	25,75
464,388	25,8
464,742	25,83
465,095	25,85
465,448	25,86
465,801	25,86
466,155	25,89
466,508	25,9
466,861	25,87
467,214	25,86
467,567	25,86
467,92	25,86
468,273	25,87
468,626	25,85
468,979	25,87
469,332	25,87
469,684	25,85
470,037	25,87
470,39	25,87
470,743	25,89
471,095	25,92
471,448	25,94
471,8	25,97
472,153	25,96
472,505	25,96
472,858	25,96
473,21	25,95
473,562	25,95
473,915	25,94
474,267	25,94
474,619	25,94
474,971	25,92
475,324	25,94
475,676	26
476,028	25,96
476,38	25,94
476,732	25,93
477,084	25,93
477,436	25,91
477,787	25,9
478,139	25,9
478,491	25,9
478,843	25,87
479,195	25,84
479,546	25,77
479,898	25,72
480,249	25,73
480,601	25,76
480,952	25,73
481,304	25,71
481,655	25,7
482,007	25,68
482,358	25,66
482,709	25,64
483,061	25,6
483,412	25,61
483,763	25,58
484,114	25,58
484,465	25,56
484,816	25,56
485,167	25,55
485,518	25,52
485,869	25,51
486,22	25,51
486,571	25,51
486,922	25,52
487,272	25,54
487,623	25,51
487,974	25,48
488,324	25,48
488,675	25,47
489,025	25,48
489,376	25,5
489,726	25,51
490,077	25,53
490,427	25,57
490,778	25,58
491,128	25,64
491,478	25,65
491,828	25,7
492,179	25,73
492,529	25,78
492,879	25,83
493,229	25,86
493,579	25,9
493,929	25,93
494,279	25,98
494,629	26,02
494,979	26,06
495,328	26,13
495,678	26,18
496,028	26,27
496,378	26,35
496,727	26,42
497,077	26,49
497,426	26,58
497,776	26,59
498,125	26,65
498,475	26,68
498,824	26,72
499,174	26,77
499,523	26,8
499,872	26,85
500,221	26,91
500,571	26,99
500,92	27,05
501,269	27,15
501,618	27,22
501,967	27,27
502,316	27,35
502,665	27,41
503,014	27,51
503,363	27,59
503,711	27,64
504,06	27,7
504,409	27,75
504,758	27,78
505,106	27,87
505,455	27,93
505,803	28,02
506,152	28,07
506,5	28,15
506,849	28,21
507,197	28,28
507,546	28,34
507,894	28,42
508,242	28,51
508,59	28,56
508,939	28,63
509,287	28,71
509,635	28,78
509,983	28,85
510,331	28,91
510,679	29
511,027	29,09
511,375	29,2
511,723	29,3
512,07	29,4
512,418	29,5
512,766	29,61
513,114	29,7
513,461	29,84
513,809	29,91
514,156	30,03
514,504	30,15
514,851	30,26
515,199	30,36
515,546	30,45
515,893	30,57
516,241	30,67
516,588	30,75
516,935	30,88
517,282	30,98
517,63	31,1
517,977	31,16
518,324	31,26
518,671	31,34
519,018	31,46
519,365	31,53
519,711	31,65
520,058	31,73
520,405	31,81
520,752	31,89
521,099	32,02
521,445	32,15
521,792	32,26
522,138	32,39
522,485	32,54
522,832	32,69
523,178	32,81
523,524	32,96
523,871	33,07
524,217	33,16
524,563	33,26
524,91	33,37
525,256	33,51
525,602	33,65
525,948	33,72
526,294	33,76
526,64	33,82
526,986	33,83
527,332	33,86
527,678	33,88
528,024	33,93
528,37	33,98
528,716	34
529,061	34,04
529,407	34,09
529,753	34,15
530,098	34,19
530,444	34,25
530,789	34,27
531,135	34,32
531,48	34,36
531,826	34,42
532,171	34,46
532,516	34,51
532,862	34,52
533,207	34,58
533,552	34,64
533,897	34,68
534,242	34,74
534,587	34,81
534,932	34,88
535,277	34,91
535,622	34,92
535,967	34,97
536,312	35,02
536,657	35,07
537,001	35,09
537,346	35,14
537,691	35,19
538,035	35,23
538,38	35,27
538,724	35,28
539,069	35,28
539,413	35,3
539,758	35,31
540,102	35,35
540,446	35,38
540,791	35,41
541,135	35,43
541,479	35,45
541,823	35,46
542,167	35,47
542,512	35,51
542,856	35,49
543,2	35,48
543,543	35,49
543,887	35,47
544,231	35,5
544,575	35,53
544,919	35,55
545,262	35,58
545,606	35,61
545,95	35,66
546,293	35,72
546,637	35,74
546,98	35,8
547,324	35,81
547,667	35,86
548,011	35,89
548,354	35,93
548,697	35,93
549,04	35,93
549,384	35,96
549,727	35,95
550,07	36,01
550,413	36,06
550,756	36,07
551,099	36,1
551,442	36,1
551,785	36,11
552,128	36,11
552,47	36,11
552,813	36,12
553,156	36,1
553,499	36,06
553,841	36,06
554,184	36
554,526	35,99
554,869	35,92
555,211	35,89
555,554	35,85
555,896	35,85
556,238	35,84
556,581	35,82
556,923	35,76
557,265	35,74
557,607	35,71
557,949	35,68
558,291	35,68
558,633	35,62
558,975	35,54
559,317	35,48
559,659	35,45
560,001	35,38
560,343	35,33
560,685	35,3
561,026	35,23
561,368	35,22
561,71	35,15
562,051	35,09
562,393	35,09
562,734	34,98
563,076	34,92
563,417	34,87
563,759	34,8
564,1	34,77
564,441	34,69
564,782	34,65
565,124	34,59
565,465	34,51
565,806	34,45
566,147	34,39
566,488	34,36
566,829	34,32
567,17	34,26
567,511	34,18
567,851	34,1
568,192	34,03
568,533	33,95
568,874	33,87
569,214	33,82
569,555	33,7
569,895	33,65
570,236	33,58
570,576	33,48
570,917	33,38
571,257	33,28
571,598	33,18
571,938	33,06
572,278	32,97
572,618	32,92
572,959	32,89
573,299	32,82
573,639	32,73
573,979	32,64
574,319	32,58
574,659	32,55
574,999	32,47
575,339	32,39
575,678	32,31
576,018	32,23
576,358	32,15
576,698	32,1
577,037	32,04
577,377	31,95
577,716	31,92
578,056	31,89
578,395	31,84
578,735	31,82
579,074	31,79
579,413	31,74
579,753	31,67
580,092	31,57
580,431	31,52
580,77	31,51
581,109	31,46
581,448	31,4
581,787	31,33
582,126	31,3
582,465	31,29
582,804	31,25
583,143	31,29
583,482	31,22
583,82	31,15
584,159	31,12
584,498	31,12
584,836	31,09
585,175	31,05
585,514	31,02
585,852	30,99
586,19	30,94
586,529	30,9
586,867	30,85
587,205	30,84
587,544	30,82
587,882	30,76
588,22	30,72
588,558	30,69
588,896	30,68
589,234	30,65
589,572	30,61
589,91	30,59
590,248	30,53
590,586	30,55
590,924	30,54
591,262	30,52
591,599	30,47
591,937	30,43
592,275	30,41
592,612	30,41
592,95	30,36
593,287	30,37
593,625	30,33
593,962	30,3
594,299	30,28
594,637	30,26
594,974	30,24
595,311	30,25
595,648	30,28
595,985	30,29
596,322	30,28
596,659	30,35
596,996	30,32
597,333	30,24
597,67	30,21
598,007	30,21
598,344	30,19
598,681	30,22
599,017	30,17
599,354	30,11
599,691	30,09
600,027	30,12
600,364	30,08
600,7	30,09
601,037	30,07
601,373	30,09
601,71	30,09
602,046	30,1
602,382	30,03
602,718	30
603,054	29,95
603,391	29,93
603,727	29,86
604,063	29,86
604,399	29,86
604,735	29,81
605,071	29,76
605,406	29,74
605,742	29,7
606,078	29,69
606,414	29,68
606,749	29,66
607,085	29,63
607,421	29,58
607,756	29,53
608,092	29,52
608,427	29,44
608,762	29,38
609,098	29,29
609,433	29,26
609,768	29,19
610,104	29,16
610,439	29,08
610,774	29,05
611,109	28,97
611,444	28,96
611,779	28,94
612,114	28,9
612,449	28,86
612,784	28,76
613,118	28,73
613,453	28,7
613,788	28,61
614,123	28,49
614,457	28,49
614,792	28,46
615,126	28,4
615,461	28,38
615,795	28,32
616,13	28,3
616,464	28,26
616,798	28,24
617,132	28,19
617,467	28,17
617,801	28,13
618,135	28,18
618,469	28,14
618,803	28,09
619,137	28,1
619,471	28,03
619,805	28,01
620,139	27,94
620,472	27,91
620,806	27,9
621,14	27,9
621,473	27,84
621,807	27,84
622,141	27,8
622,474	27,74
622,808	27,78
623,141	27,79
623,474	27,74
623,808	27,74
624,141	27,73
624,474	27,73
624,807	27,71
625,141	27,66
625,474	27,62
625,807	27,64
626,14	27,58
626,473	27,6
626,806	27,6
627,138	27,63
627,471	27,58
627,804	27,55
628,137	27,58
628,469	27,49
628,802	27,47
629,135	27,45
629,467	27,49
629,8	27,43
630,132	27,4
630,465	27,45
630,797	27,42
631,129	27,4
631,461	27,37
631,794	27,4
632,126	27,36
632,458	27,34
632,79	27,3
633,122	27,3
633,454	27,27
633,786	27,23
634,118	27,22
634,45	27,25
634,781	27,28
635,113	27,24
635,445	27,3
635,777	27,28
636,108	27,24
636,44	27,17
636,771	27,17
637,103	27,14
637,434	27,09
637,765	27,05
638,097	27,07
638,428	27,03
638,759	26,94
639,09	26,94
639,422	26,96
639,753	26,98
640,084	26,96
640,415	26,91
640,746	26,92
641,077	26,83
641,407	26,74
641,738	26,66
642,069	26,6
642,4	26,54
642,73	26,49
643,061	26,45
643,392	26,39
643,722	26,31
644,053	26,25
644,383	26,17
644,713	26,11
645,044	25,96
645,374	25,92
645,704	25,87
646,034	25,85
646,365	25,75
646,695	25,66
647,025	25,63
647,355	25,56
647,685	25,43
648,015	25,4
648,344	25,37
648,674	25,33
649,004	25,29
649,334	25,26
649,663	25,25
649,993	25,24
650,323	25,19
650,652	25,11
650,982	25,1
651,311	25,06
651,64	25,03
651,97	25
652,299	24,98
652,628	24,98
652,958	24,94
653,287	25,03
653,616	24,95
653,945	24,86
654,274	24,91
654,603	24,95
654,932	24,91
655,261	24,93
655,589	24,91
655,918	24,87
656,247	24,78
656,576	24,74
656,904	24,64
657,233	24,67
657,561	24,65
657,89	24,53
658,218	24,52
658,547	24,47
658,875	24,5
659,203	24,42
659,532	24,37
659,86	24,31
660,188	24,18
660,516	24,19
660,844	24,16
661,172	24,1
661,5	24,02
661,828	23,97
662,156	23,88
662,484	23,83
662,811	23,75
663,139	23,71
663,467	23,61
663,794	23,59
664,122	23,44
664,45	23,43
664,777	23,5
665,104	23,52
665,432	23,34
665,759	23,21
666,086	23,2
666,414	23,11
666,741	23,02
667,068	22,97
667,395	22,92
667,722	22,93
668,049	22,9
668,376	22,87
668,703	22,8
669,03	22,81
669,357	22,76
669,683	22,7
670,01	22,67
670,337	22,66
670,663	22,69
670,99	22,68
671,317	22,6
671,643	22,48
671,969	22,32
672,296	22,39
672,622	22,42
672,948	22,31
673,275	22,27
673,601	22,3
673,927	22,24
674,253	22,22
674,579	22,19
674,905	22,13
675,231	22,08
675,557	22,13
675,883	22,12
676,209	22,14
676,534	22,1
676,86	22,15
677,186	22,09
677,511	22,11
677,837	22,13
678,162	22,17
678,488	22,21
678,813	22,27
679,139	22,28
679,464	22,32
679,789	22,39
680,114	22,49
680,44	22,55
680,765	22,58
681,09	22,63
681,415	22,69
681,74	22,74
682,065	22,83
682,39	22,89
682,714	22,95
683,039	22,89
683,364	23,08
683,689	23,14
684,013	23,24
684,338	23,27
684,662	23,43
684,987	23,56
685,311	23,69
685,636	23,75
685,96	23,89
686,284	24,03
686,608	24,26
686,933	24,4
687,257	24,5
687,581	24,71
687,905	24,87
688,229	24,98
688,553	25,12
688,877	25,27
689,201	25,4
689,524	25,53
689,848	25,81
690,172	25,89
690,496	26,07
690,819	26,29
691,143	26,53
691,466	26,67
691,79	26,93
692,113	27,2
692,436	27,46
692,76	27,72
693,083	27,93
693,406	28,11
693,729	28,31
694,053	28,62
694,376	28,92
694,699	29,17
695,022	29,56
695,344	29,94
695,667	30,35
695,99	30,72
696,313	31,04
696,636	31,33
696,958	31,67
697,281	31,93
697,604	32,21
697,926	32,42
698,249	32,8
698,571	32,87
698,893	32,99
699,216	33,21
699,538	33,46
699,86	33,65
700,182	33,86
700,504	34,16
700,827	34,43
701,149	34,61
701,471	34,96
701,793	35,23
702,114	35,67
702,436	36,03
702,758	36,48
703,08	36,95
703,401	37,32
703,723	37,69
704,045	38,08
704,366	38,37
704,688	38,72
705,009	38,96
705,331	39,49
705,652	39,82
705,973	40,14
706,294	40,49
706,616	40,9
706,937	41,28
707,258	41,51
707,579	41,71
707,9	42,03
708,221	42,31
708,542	42,66
708,863	42,79
709,183	43,09
709,504	43,24
709,825	43,45
710,145	43,82
710,466	44,05
710,787	44,47
711,107	44,84
711,427	45,17
711,748	45,43
712,068	45,71
712,388	46,24
712,709	46,6
713,029	46,89
713,349	47,26
713,669	47,5
713,989	47,83
714,309	48,21
714,629	48,57
714,949	48,94
715,269	49,24
715,589	49,63
715,908	49,97
716,228	50,4
716,548	50,84
716,867	51,14
717,187	51,52
717,506	51,82
717,826	52,16
718,145	52,5
718,465	52,84
718,784	53,28
719,103	53,58
719,422	54,03
719,741	54,62
720,061	55,05
720,38	55,54
720,699	56,02
721,018	56,42
721,336	56,71
721,655	56,99
721,974	57,38
722,293	57,7
722,612	58,19
722,93	58,45
723,249	58,73
723,567	59,22
723,886	59,63
724,204	60,05
724,523	60,42
724,841	60,95
725,159	61,42
725,477	61,57
725,796	61,89
726,114	62,28
726,432	62,57
726,75	62,74
727,068	63,02
727,386	63,36
727,704	63,78
728,022	64,21
728,339	64,54
728,657	64,86
728,975	65,34
729,292	65,48
729,61	65,83
729,928	66,19
730,245	66,31
730,562	66,56
730,88	66,84
731,197	67,13
731,514	67,3
731,832	67,6
732,149	68
732,466	68,36
732,783	68,57
733,1	68,79
733,417	69,19
733,734	69,64
734,051	69,93
734,368	70,13
734,684	70,31
735,001	70,69
735,318	71,04
735,634	71,18
735,951	71,41
736,268	71,73
736,584	72,08
736,9	72,55
737,217	72,96
737,533	73,13
737,849	73,43
738,166	73,67
738,482	73,79
738,798	74,07
739,114	74,19
739,43	74,5
739,746	74,68
740,062	74,86
740,378	74,96
740,693	75,14
741,009	75,51
741,325	75,76
741,641	75,98
741,956	76,17
742,272	76,49
742,587	76,97
742,903	77,35
743,218	77,37
743,533	77,47
743,849	77,79
744,164	77,97
744,479	78,18
744,794	78,34
745,109	78,69
745,424	78,63
745,739	78,54
746,054	78,58
746,369	78,61
746,684	78,6
746,999	78,68
747,313	78,61
747,628	78,44
747,943	78,57
748,257	78,6
748,572	78,6
748,886	78,58
749,201	78,49
749,515	78,36
749,829	78,61
750,144	78,79
750,458	78,8
750,772	79,04
751,086	79,24
751,4	79,29
751,714	79,3
752,028	79,67
752,342	79,85
752,656	79,94
752,97	80,13
753,284	80,3
753,597	80,37
753,911	80,69
754,225	80,82
754,538	81,03
754,852	81,13
755,165	81,21
755,478	81,36
755,792	81,61
756,105	81,57
756,418	81,62
756,731	81,54
757,045	81,51
757,358	81,41
757,671	81,14
757,984	81,28
758,297	81,41
758,609	81,27
758,922	81,4
759,235	81,44
759,548	81,52
759,86	81,43
760,173	81,33
760,486	81,04
760,798	81,05
761,111	80,78
761,423	80,7
761,735	80,77
762,048	80,66
762,36	80,71
762,672	80,95
762,984	80,84
763,296	80,69
763,608	80,81
763,92	80,9
764,232	81,05
764,544	81,14
764,856	81,02
765,168	81,16
765,48	81,31
765,791	81,26
766,103	81,27
766,414	81,32
766,726	81,48
767,037	81,69
767,349	81,82
767,66	82,16
767,972	82,37
768,283	82,44
768,594	82,69
768,905	82,62
769,216	82,52
769,527	82,64
769,838	83,1
770,149	82,95
770,46	82,83
770,771	82,93
771,082	83,03
771,393	83,04
771,703	82,95
772,014	83,05
772,324	83,21
772,635	83,34
772,945	83,39
773,256	83,36
773,566	83,58
773,877	83,86
774,187	83,85
774,497	83,88
774,807	83,95
775,117	83,85
775,427	83,78
775,737	83,81
776,047	83,83
776,357	84
776,667	84,57
776,977	84,87
777,287	84,83
777,596	84,74
777,906	85,12
778,216	85,09
778,525	84,93
778,835	85,06
779,144	85,08
779,453	85,27
779,763	85,26
780,072	85,14
780,381	85,18
780,69	85,28
781	85,5
781,309	85,35
781,618	85,22
781,927	85,35
782,235	85,44
782,544	85,49
782,853	85,29
783,162	85,05
783,471	85,24
783,779	85,44
784,088	85,27
784,396	85,11
784,705	85,14
785,013	85,1
785,322	84,95
785,63	84,71
785,938	84,74
786,246	85,04
786,554	85,04
786,863	84,75
787,171	84,91
787,479	84,75
787,787	84,86
788,094	85,21
788,402	85,23
788,71	85,14
789,018	85,12
789,326	85,01
789,633	84,88
789,941	84,79
790,248	84,44
790,556	84,59
790,863	84,77
791,171	84,73
791,478	84,76
791,785	84,73
792,092	84,89
792,399	84,71
792,707	84,68
793,014	84,68
793,321	84,77
793,628	84,62
793,934	84,72
794,241	84,72
794,548	84,47
794,855	84,56
795,161	84,46
795,468	84,74
795,775	84,82
796,081	84,72
796,388	84,62
796,694	84,67
797	84,13
797,307	83,8
797,613	84,12
797,919	84,15
798,225	84,18
798,531	84,2
798,837	84,47
799,143	84,07
799,449	84,21
799,755	84,32
800,061	84,3
800,367	84,16
800,672	84,46
800,978	84,98
801,284	85,02
801,589	85,29
801,895	85,13
802,2	85,13
802,506	85,23
802,811	85,11
803,116	85,43
803,421	86,05
803,727	86,25
804,032	86,07
804,337	86,31
804,642	86,58
804,947	86,67
805,252	86,49
805,556	86,89
805,861	86,97
806,166	86,78
806,471	86,61
806,775	86,38
807,08	86,05
807,384	85,78
807,689	85,87
807,993	85,46
808,298	85,62
808,602	86
808,906	85,86
809,211	86,45
809,515	86,02
809,819	86,08
810,123	85,99
810,427	86,04
810,731	85,96
811,035	85,86
811,338	85,75
811,642	85,91
811,946	86,06
812,25	85,76
812,553	85,87
812,857	85,9
813,16	86,35
813,464	86,5
813,767	86,8
814,07	86,61
814,374	86,88
814,677	86,78
814,98	86,46
815,283	86,64
815,586	86,32
815,889	86,54
816,192	86,38
816,495	86,6
816,798	86,3
817,101	86,26
817,404	85,93
817,706	85,63
818,009	85,24
818,312	84,96
818,614	84,78
818,917	84,14
819,219	83,67
819,521	82,75
819,824	81,92
820,126	81,09
820,428	80,72
820,73	80,72
821,032	80,56
821,334	80,46
821,636	80,36
821,938	80,57
822,24	80,6
822,542	80,56
822,844	80,49
823,145	80,5
823,447	80,47
823,749	80,59
824,05	80,56
824,352	80,5
824,653	80,5
824,955	80,48
825,256	80,61
825,557	80,61
825,858	80,8
826,16	81
826,461	81,35
826,762	81,6
827,063	81,79
827,364	82,1
827,665	82,37
827,965	82,7
828,266	82,4
828,567	82,46
828,868	82,56
829,168	82,75
829,469	82,9
829,769	82,93
830,07	82,8
830,37	82,93
830,67	83,41
830,971	83,43
831,271	83,48
831,571	83,44
831,871	83,86
832,171	83,69
832,471	83,94
832,771	83,97
833,071	84,22
833,371	84,1
833,671	84,11
833,971	84,15
834,27	83,94
834,57	84,19
834,869	84,22
835,169	84,39
835,468	84,43
835,768	84,61
836,067	84,8
836,367	84,78
836,666	84,8
836,965	84,85
837,264	85,03
837,563	85,53
837,862	85,7
838,161	85,67
838,46	85,85
838,759	85,95
839,058	86,23
839,356	86,52
839,655	86,48
839,954	86,41
840,252	86,15
840,551	86,36
840,849	86,36
841,148	86,56
841,446	86,74
841,744	86,82
842,043	86,6
842,341	86,14
842,639	86,36
842,937	87,02
843,235	87,22
843,533	87,4
843,831	87,72
844,129	88,37
844,427	88,81
844,724	89,36
845,022	89,95
845,32	90,35
845,617	90,75
845,915	91,41
846,212	91,8
846,51	93,25
846,807	93,64
847,104	94,04
847,402	95,09
847,699	95,65
847,996	95,44
848,293	95,29
848,59	95,04
848,887	94,72
849,184	94,69
849,481	94,87
849,778	94,99
850,074	95,4
850,371	95,82
850,668	96,15
850,964	96,17
851,261	96,81
851,557	96,96
851,854	95,91
852,15	95,87
852,446	96,02
852,743	95,39
853,039	94,67
853,335	93,96
853,631	93,34
853,927	92,92
854,223	93,62
854,519	94,36
854,815	95,63
855,111	96,7
855,406	96,51
855,702	96,77
855,998	97,26
856,293	96,87
856,589	96,34
856,884	96,59
857,18	97,11
857,475	96,65
857,77	96,54
858,066	97,55
858,361	97,92
858,656	98,05
858,951	98,78
859,246	99,29
859,541	99,86
859,836	99,72
860,131	99,54
860,426	98,8
860,72	98,02
861,015	97,53
861,31	96,73
861,604	97,08
861,899	96,54
862,193	95,56
862,487	95,01
862,782	95,81
863,076	95,81
863,37	95,8
863,664	95,33
863,959	95,15
864,253	95,16
864,547	95,42
864,841	95,09
865,135	94,26
865,428	95,15
865,722	94,92
866,016	95,9
866,31	96,79
866,603	97,94
866,897	98,83
867,19	99,85
867,484	99,8
867,777	100,36
868,07	100,36
868,364	101,4
868,657	102,55
868,95	102,39
869,243	101,79
869,536	103,08
869,829	103,44
870,122	103,21
870,415	102,14
870,708	102,22
871	102,88
871,293	103,52
871,586	102,8
871,878	102,76
872,171	101,46
872,463	100,5
872,756	99,28
873,048	99,17
873,341	98,22
873,633	98,82
873,925	98,33
874,217	98,48
874,509	98,34
874,801	97,29
875,093	96,46
875,385	96,51
875,677	94,2
875,969	94,28
